Folder: fp/versuche/roentgenreflektometrie/messwerte

Note: versuche/roentgenreflektometrie/messwerte/diffus.txt
# THETA  PSD
0.0000    1092400
0.0050     890860
0.0100     732209
0.0150     603383
0.0200     528670
0.0250     479162
0.0300     437669
0.0350     413183
0.0400     388952
0.0450     364747
0.0500     349304
0.0550     332455
0.0600     306750
0.0650     290153
0.0700     273336
0.0750     257563
0.0800     251683
0.0850     241237
0.0900     229666
0.0950     221535
0.1000     209389
0.1050     192546
0.1100     179462
0.1150     161341
0.1200     144721
0.1250     129218
0.1300     114081
0.1350      98394
0.1400      86797
0.1450      76109
0.1500      67899
0.1550      60753
0.1600      55501
0.1650      50073
0.1700      45901
0.1750      41606
0.1800      37569
0.1850      34010
0.1900      30312
0.1950      26692
0.2000      22936
0.2050      20058
0.2100      17149
0.2150      14521
0.2200      12522
0.2250      10357
0.2300       8264
0.2350       6613
0.2400       5284
0.2450       3936
0.2500       2933
0.2550       2127
0.2600       1760
0.2650       1638
0.2700       1613
0.2750       1514
0.2800       1599
0.2850       1559
0.2900       1604
0.2950       1632
0.3000       1685
0.3050       1698
0.3100       1702
0.3150       1695
0.3200       1755
0.3250       1723
0.3300       1747
0.3350       1710
0.3400       1709
0.3450       1653
0.3500       1653
0.3550       1519
0.3600       1519
0.3650       1471
0.3700       1393
0.3750       1343
0.3800       1228
0.3850       1216
0.3900       1097
0.3950        996
0.4000        894
0.4050        809
0.4100        800
0.4150        764
0.4200        667
0.4250        668
0.4300        603
0.4350        564
0.4400        543
0.4450        502
0.4500        491
0.4550        456
0.4600        433
0.4650        484
0.4700        437
0.4750        441
0.4800        465
0.4850        480
0.4900        482
0.4950        533
0.5000        500
0.5050        467
0.5100        531
0.5150        532
0.5200        475
0.5250        489
0.5300        512
0.5350        462
0.5400        435
0.5450        455
0.5500        472
0.5550        399
0.5600        415
0.5650        402
0.5700        439
0.5750        349
0.5800        378
0.5850        351
0.5900        353
0.5950        322
0.6000        296
0.6050        267
0.6100        274
0.6150        239
0.6200        210
0.6250        170
0.6300        169
0.6350        125
0.6400        123
0.6450        102
0.6500        102
0.6550        106
0.6600         86
0.6650         82
0.6700         78
0.6750         65
0.6800         62
0.6850         86
0.6900         78
0.6950         86
0.7000         78
0.7050         90
0.7100         88
0.7150         84
0.7200        103
0.7250         95
0.7300         91
0.7350         88
0.7400        102
0.7450        107
0.7500        101
0.7550        108
0.7600         99
0.7650        122
0.7700        107
0.7750        103
0.7800        101
0.7850        100
0.7900         94
0.7950         96
0.8000         82
0.8050         87
0.8100        100
0.8150         93
0.8200         71
0.8250         75

File: Diffus2.uxd
; (content of file C:\Dokumente und Einstellungen\TU Dortmund\Desktop\Jan-Mareike\Messung2.raw)
_FILEVERSION = 2
_SAMPLE =
_+SAMPLE =
_SITE = Deutschland
_USER = Administrator
_GONIOMETER_CODE = 21
_STAGE_CODE = 19
; Goniometer : D8 theta/theta, stage : Unknown
_SAMPLE_CHANGER_CODE = 0
_ATTACHMENTS_CODE = 0
_GONIOMETER_RADIUS = 350
_FIXED_DIVSLIT = 0.6
_FIXED_SAMPLESLIT = 0
_FIXED_DETSLIT = 11.66
_MONOCHROMATOR = 0
; Incident beam monochromator : None
_THIN_FILM = N
_BETA_FILTER = Y
_FIXED_ANTISLIT = 8.34
_ANALYZER_CODE = 0
; Received beam analyzer : None
_DATEMEASURED = "25-Mar-2015 13:29:06"
_WL_UNIT = A
_WL1 = 1.5406
_WL2 = 1.54439
_WL3 = 1.39222
_WLRATIO = 0.5
_ANODE = Cu

; Data for range 1
_DRIVE = THETA
_STEPTIME = 19.97
_STEPSIZE = 0.005
_STEPMODE = C
_START = 0
_THETA = 0
_2THETA = 0.15
_KHI = 0
_PHI = 0
_X = -1.85
_Y = -0.684
_Z = -4.639
_DETECTOR = 5
; Detector type : Unknown
_DETECTORSLIT = out
_AUX1 = 0
_AUX2 = 0
_AUX3 = 0
_TIMESTARTED = 2
_TEMP_RATE = -1
_TEMP_DELAY = -1
_KV = 40
_MA = 35
_RANGE_WL = 1.5406
_3DPLANE = 0
_V4_COUNTERS_MASK = 4096
_V4_DRIVES_MASK = 0
_V4_ENCODERS_MASK = 0
_2THETACOUNTS = 1
; THETA  PSD
   0.0000    1190990
   0.0100    1048880
   0.0200     921617
   0.0300     747560
   0.0400     641070
   0.0500     579367
   0.0600     508990
   0.0700     435489
   0.0800     381635
   0.0900     346179
   0.1000     306945
   0.1100     276155
   0.1200     257450
   0.1300     238308
   0.1400     221380
   0.1500     193803
   0.1600     159161
   0.1700     125784
   0.1800      97579
   0.1900      74568
   0.2000      52895
   0.2100      35446
   0.2200      21606
   0.2300      13227
   0.2400       9400
   0.2500       8349
   0.2600       7664
   0.2700       6805
   0.2800       6109
   0.2900       5401
   0.3000       4802
   0.3100       4293
   0.3200       3910
   0.3300       3537
   0.3400       3283
   0.3500       2813
   0.3600       2499
   0.3700       2202
   0.3800       1980
   0.3900       1629
   0.4000       1318
   0.4100       1107
   0.4200        936
   0.4300        910
   0.4400        813
   0.4500        788
   0.4600        739
   0.4700        718
   0.4800        644
   0.4900        596
   0.5000        568
   0.5100        508
   0.5200        451
   0.5300        465
   0.5400        422
   0.5500        415
   0.5600        384
   0.5700        338
   0.5800        343
   0.5900        289
   0.6000        323
   0.6100        297
   0.6200        246
   0.6300        234
   0.6400        235
   0.6500        222
   0.6600        218
   0.6700        211
   0.6800        201
   0.6900        182
   0.7000        184
   0.7100        145
   0.7200        160
   0.7300        137
   0.7400        112
   0.7500        129
   0.7600        109
   0.7700        115
   0.7800         96
   0.7900        102
   0.8000        102
   0.8100         76
   0.8200         75
   0.8300         87
   0.8400         80
   0.8500         67
   0.8600         65
   0.8700         65
   0.8800         70
   0.8900         60
   0.9000         52
   0.9100         57
   0.9200         51
   0.9300         42
   0.9400         39
   0.9500         43
   0.9600         40
   0.9700         43
   0.9800         38
   0.9900         30
   1.0000         33
   1.0100         35
   1.0200         37
   1.0300         40
   1.0400         20
   1.0500         23
   1.0600         37
   1.0700         29
   1.0800         25
   1.0900         24
   1.1000         20
   1.1100         21
   1.1200         23
   1.1300         22
   1.1400         21
   1.1500         25
   1.1600         31
   1.1700         27
   1.1800         21
   1.1900         23
   1.2000         27
   1.2100         23
   1.2200         16
   1.2300         20
   1.2400         18
   1.2500         22
   1.2600         20
   1.2700         23
   1.2800          8
   1.2900         19
   1.3000         16
   1.3100         27
   1.3200         14
   1.3300         28
   1.3400         18
   1.3500         21
   1.3600         23
   1.3700         23
   1.3800         12
   1.3900         15
   1.4000         16
   1.4100         17
   1.4200         14
   1.4300         21
   1.4400         18
   1.4500         14
   1.4600         16
   1.4700         13
   1.4800         19
   1.4900         14
   1.5000         16
   1.5100         18
   1.5200         15
   1.5300         17
   1.5400         16
   1.5500         12
   1.5600         17
   1.5700         16
   1.5800         10
   1.5900         14
   1.6000          9
   1.6100         12
   1.6200         10
   1.6300         18
   1.6400         10
   1.6500         10
   1.6600          7
   1.6700         10
   1.6800         12
   1.6900         12
   1.7000         15
   1.7100         16
   1.7200         13
   1.7300         15
   1.7400         12
   1.7500         10
   1.7600         13
   1.7700          6
   1.7800         12
   1.7900          6
   1.8000          7
   1.8100          9
   1.8200         11
   1.8300         11
   1.8400          5
   1.8500          7
   1.8600         10
   1.8700         10
   1.8800          7
   1.8900         11
   1.9000         19
   1.9100          6
   1.9200         13
   1.9300          9
   1.9400         10
   1.9500          6
   1.9600          5
   1.9700          3
   1.9800         11
   1.9900          9
   2.0000          9
   2.0100         10
   2.0200          5
   2.0300          4
   2.0400         10
   2.0500          5
   2.0600          5
   2.0700          3
   2.0800          6
   2.0900          9
   2.1000         10
   2.1100          4
   2.1200          8
   2.1300          6
   2.1400         10
   2.1500          7
   2.1600          7
   2.1700          9
   2.1800         10
   2.1900          7
   2.2000          7
   2.2100          7
   2.2200          8
   2.2300         10
   2.2400         11
   2.2500          2
   2.2600          6
   2.2700          6
   2.2800          8
   2.2900          4
   2.3000          5
   2.3100          4
   2.3200          7
   2.3300          3
   2.3400          1
   2.3500          7
   2.3600          2
   2.3700          5
   2.3800          4
   2.3900          6
   2.4000          5
   2.4100          4
   2.4200          9
   2.4300          2
   2.4400          5
   2.4500          9
   2.4600          6
   2.4700          8
   2.4800          5
   2.4900          7
   2.5000         11

File: Messung.uxd
; (content of file C:\Dokumente und Einstellungen\TU Dortmund\Desktop\Praktikum\Mario\Messung.raw)
_FILEVERSION = 2
_SAMPLE =
_+SAMPLE =
_SITE = Deutschland
_USER = Administrator
_GONIOMETER_CODE = 21
_STAGE_CODE = 19
; Goniometer : D8 theta/theta, stage : Unknown
_SAMPLE_CHANGER_CODE = 0
_ATTACHMENTS_CODE = 0
_GONIOMETER_RADIUS = 350
_FIXED_DIVSLIT = 0.6
_FIXED_SAMPLESLIT = 0
_FIXED_DETSLIT = 11.66
_MONOCHROMATOR = 0
; Incident beam monochromator : None
_THIN_FILM = N
_BETA_FILTER = Y
_FIXED_ANTISLIT = 8.34
_ANALYZER_CODE = 0
; Received beam analyzer : None
_DATEMEASURED = "27-Apr-2015 11:09:34"
_WL_UNIT = A
_WL1 = 1.5406
_WL2 = 1.54439
_WL3 = 1.39222
_WLRATIO = 0.5
_ANODE = Cu

; Data for range 1
_DRIVE = THETA
_STEPTIME = 19.97
_STEPSIZE = 0.005
_STEPMODE = C
_START = 0
_THETA = 0
_2THETA = 0
_KHI = 0
_PHI = 0
_X = 9.6
_Y = 0
_Z = -6.401
_DETECTOR = 5
; Detector type : Unknown
_DETECTORSLIT = out
_AUX1 = 0
_AUX2 = 0
_AUX3 = 0
_TIMESTARTED = 3
_TEMP_RATE = -1
_TEMP_DELAY = -1
_KV = 40
_MA = 35
_RANGE_WL = 1.5406
_3DPLANE = 0
_V4_COUNTERS_MASK = 4096
_V4_DRIVES_MASK = 0
_V4_ENCODERS_MASK = 0
_2THETACOUNTS = 1
; THETA  PSD
   0.0000    9426040
   0.0100    9901120
   0.0200    7737960
   0.0300    4976340
   0.0400    2926250
   0.0500    1944610
   0.0600    1626720
   0.0700    1528650
   0.0800    1568450
   0.0900    1652860
   0.1000    1743000
   0.1100    1838410
   0.1200    1938260
   0.1300    2045860
   0.1400    2157730
   0.1500    2271100
   0.1600    2367110
   0.1700    2448010
   0.1800    2490010
   0.1900    2475460
   0.2000    2385560
   0.2100    2084310
   0.2200    1611920
   0.2300    1093050
   0.2400     682954
   0.2500     484091
   0.2600     371490
   0.2700     286552
   0.2800     213892
   0.2900     155456
   0.3000     106383
   0.3100      70386
   0.3200      42862
   0.3300      24378
   0.3400      14002
   0.3500       8875
   0.3600       8588
   0.3700      11055
   0.3800      15079
   0.3900      19748
   0.4000      23755
   0.4100      27066
   0.4200      29467
   0.4300      29799
   0.4400      29295
   0.4500      27611
   0.4600      24645
   0.4700      21093
   0.4800      17300
   0.4900      13608
   0.5000      10156
   0.5100       7071
   0.5200       4554
   0.5300       2884
   0.5400       1937
   0.5500       1563
   0.5600       1712
   0.5700       2310
   0.5800       3125
   0.5900       4076
   0.6000       5015
   0.6100       5896
   0.6200       6451
   0.6300       6860
   0.6400       6717
   0.6500       6527
   0.6600       6153
   0.6700       5499
   0.6800       4559
   0.6900       3662
   0.7000       2794
   0.7100       2025
   0.7200       1346
   0.7300        899
   0.7400        579
   0.7500        433
   0.7600        474
   0.7700        564
   0.7800        821
   0.7900       1142
   0.8000       1399
   0.8100       1696
   0.8200       1950
   0.8300       2065
   0.8400       2135
   0.8500       2146
   0.8600       2045
   0.8700       1808
   0.8800       1596
   0.8900       1325
   0.9000       1103
   0.9100        827
   0.9200        643
   0.9300        406
   0.9400        309
   0.9500        201
   0.9600        195
   0.9700        209
   0.9800        265
   0.9900        382
   1.0000        456
   1.0100        589
   1.0200        717
   1.0300        751
   1.0400        803
   1.0500        837
   1.0600        830
   1.0700        768
   1.0800        675
   1.0900        639
   1.1000        521
   1.1100        406
   1.1200        325
   1.1300        205
   1.1400        183
   1.1500        107
   1.1600         97
   1.1700         92
   1.1800        101
   1.1900        118
   1.2000        201
   1.2100        235
   1.2200        254
   1.2300        292
   1.2400        361
   1.2500        359
   1.2600        371
   1.2700        360
   1.2800        341
   1.2900        282
   1.3000        262
   1.3100        233
   1.3200        176
   1.3300        120
   1.3400        105
   1.3500         65
   1.3600         61
   1.3700         39
   1.3800         37
   1.3900         39
   1.4000         68
   1.4100         84
   1.4200        116
   1.4300        121
   1.4400        156
   1.4500        160
   1.4600        169
   1.4700        177
   1.4800        172
   1.4900        160
   1.5000        138
   1.5100        132
   1.5200        107
   1.5300         82
   1.5400         61
   1.5500         51
   1.5600         37
   1.5700         28
   1.5800         34
   1.5900         27
   1.6000         29
   1.6100         39
   1.6200         58
   1.6300         63
   1.6400         69
   1.6500         81
   1.6600         91
   1.6700        100
   1.6800         78
   1.6900         74
   1.7000         82
   1.7100         74
   1.7200         63
   1.7300         53
   1.7400         50
   1.7500         35
   1.7600         31
   1.7700         25
   1.7800         13
   1.7900         15
   1.8000         18
   1.8100         27
   1.8200         34
   1.8300         24
   1.8400         35
   1.8500         39
   1.8600         60
   1.8700         45
   1.8800         61
   1.8900         45
   1.9000         46
   1.9100         55
   1.9200         42
   1.9300         40
   1.9400         24
   1.9500         24
   1.9600         12
   1.9700         16
   1.9800         18
   1.9900         15
   2.0000         22
   2.0100         16
   2.0200         17
   2.0300         19
   2.0400         24
   2.0500         21
   2.0600         19
   2.0700         23
   2.0800         18
   2.0900         25
   2.1000         30
   2.1100         26
   2.1200         30
   2.1300         26
   2.1400         23
   2.1500         18
   2.1600         15
   2.1700         17
   2.1800         15
   2.1900         11
   2.2000         10
   2.2100          7
   2.2200         12
   2.2300          7
   2.2400         17
   2.2500         19
   2.2600         20
   2.2700         20
   2.2800         21
   2.2900         23
   2.3000         15
   2.3100         24
   2.3200         20
   2.3300         15
   2.3400         14
   2.3500         12
   2.3600          7
   2.3700         10
   2.3800         10
   2.3900          4
   2.4000          5
   2.4100          7
   2.4200          9
   2.4300          7
   2.4400          7
   2.4500          6
   2.4600         14
   2.4700         11
   2.4800         15
   2.4900         11
   2.5000         11